{
  "resourceType": "Bundle",
  "id": "555-42-23-4",
  "meta": {
    "profile": [
      "https://demis.rki.de/fhir/StructureDefinition/NotificationBundleDiseaseNonNominal"
    ]
  },
  "identifier": {
    "system": "https://demis.rki.de/fhir/NamingSystem/NotificationBundleId",
    "value": "555-42-23-5"
  },
  "type": "document",
  "timestamp": "2024-03-14T14:45:00.000+01:00",
  "entry": [
    {
      "fullUrl": "https://demis.rki.de/fhir/Composition/555-42-23-8",
      "resource": {
        "resourceType": "Composition",
        "id": "555-42-23-8",
        "meta": {
          "profile": [
            "https://demis.rki.de/fhir/StructureDefinition/NotificationDiseaseNonNominalTOXD"
          ]
        },
        "identifier": {
          "system": "https://demis.rki.de/fhir/NamingSystem/NotificationId",
          "value": "555-42-23-9"
        },
        "status": "final",
        "type": {
          "coding": [
            {
              "system": "http://loinc.org",
              "code": "34782-3",
              "display": "Infectious disease Note"
            }
          ]
        },
        "category": [
          {
            "coding": [
              {
                "system": "https://demis.rki.de/fhir/CodeSystem/notificationType",
                "code": "7.3",
                "display": "Meldung gemäß §7 Absatz 3 IfSG"
              }
            ]
          }
        ],
        "subject": {
          "reference": "Patient/555-42-23-3"
        },
        "date": "2024-03-14T14:45:00+01:00",
        "author": [
          {
            "reference": "PractitionerRole/555-42-23-2"
          }
        ],
        "title": "Meldung gemäß §7 Absatz 3 IfSG",
        "section": [
          {
            "title": "disease",
            "code": {
              "coding": [
                {
                  "system": "https://demis.rki.de/fhir/CodeSystem/sectionCode",
                  "code": "diagnosis",
                  "display": "Diagnose"
                }
              ]
            },
            "entry": [
              {
                "reference": "Condition/555-42-23-6"
              }
            ]
          },
          {
            "title": "Meldetatbestandsspezifische klinische und epidemiologische Angaben",
            "code": {
              "coding": [
                {
                  "system": "https://demis.rki.de/fhir/CodeSystem/sectionCode",
                  "code": "specificClinAndEpiInformation",
                  "display": "Meldetatbestandsspezifische klinische und epidemiologische Angaben"
                }
              ]
            },
            "entry": [
              {
                "reference": "QuestionnaireResponse/555-42-23-7"
              }
            ]
          }
        ]
      }
    },
    {
      "fullUrl": "https://demis.rki.de/fhir/Patient/555-42-23-3",
      "resource": {
        "resourceType": "Patient",
        "id": "555-42-23-3",
        "meta": {
          "profile": [
            "https://demis.rki.de/fhir/StructureDefinition/NotifiedPerson"
          ]
        },
        "name": [
          {
            "use": "official",
            "family": "Melderson",
            "given": [
              "Max"
            ]
          }
        ],
        "gender": "male",
        "birthDate": "1970-01-01",
        "address": [
          {
            "extension": [
              {
                "url": "https://demis.rki.de/fhir/StructureDefinition/AddressUse",
                "valueCoding": {
                  "system": "https://demis.rki.de/fhir/CodeSystem/addressUse",
                  "code": "current",
                  "display": "Derzeitiger Aufenthaltsort"
                }
              }
            ],
            "line": [
              "Wohnsitzstraße 1"
            ],
            "_line": [
              {
                "extension": [
                  {
                    "url": "http://hl7.org/fhir/StructureDefinition/iso21090-ADXP-streetName",
                    "valueString": "Wohnsitzstraße"
                  },
                  {
                    "url": "http://hl7.org/fhir/StructureDefinition/iso21090-ADXP-houseNumber",
                    "valueString": "1"
                  }
                ]
              }
            ],
            "city": "Berlin",
            "postalCode": "21481",
            "country": "DE"
          },
          {
            "extension": [
              {
                "url": "https://demis.rki.de/fhir/StructureDefinition/AddressUse",
                "valueCoding": {
                  "system": "https://demis.rki.de/fhir/CodeSystem/addressUse",
                  "code": "primary",
                  "display": "Hauptwohnsitz"
                }
              }
            ],
            "line": [
              "Wohnsitzstraße 1"
            ],
            "_line": [
              {
                "extension": [
                  {
                    "url": "http://hl7.org/fhir/StructureDefinition/iso21090-ADXP-streetName",
                    "valueString": "Wohnsitzstraße"
                  },
                  {
                    "url": "http://hl7.org/fhir/StructureDefinition/iso21090-ADXP-houseNumber",
                    "valueString": "1"
                  }
                ]
              }
            ],
            "city": "Berlin",
            "postalCode": "21481",
            "country": "DE"
          }
        ]
      }
    },
    {
      "fullUrl": "https://demis.rki.de/fhir/Condition/555-42-23-6",
      "resource": {
        "resourceType": "Condition",
        "id": "555-42-23-6",
        "meta": {
          "profile": [
            "https://demis.rki.de/fhir/StructureDefinition/DiseaseTOXD"
          ]
        },
        "clinicalStatus": {
          "coding": [
            {
              "system": "http://terminology.hl7.org/CodeSystem/condition-clinical",
              "code": "active"
            }
          ]
        },
        "verificationStatus": {
          "coding": [
            {
              "system": "http://terminology.hl7.org/CodeSystem/condition-ver-status",
              "code": "confirmed"
            }
          ]
        },
        "code": {
          "coding": [
            {
              "system": "https://demis.rki.de/fhir/CodeSystem/notificationDiseaseCategory",
              "code": "toxd"
            }
          ]
        },
        "subject": {
          "reference": "Patient/555-42-23-3"
        },
        "note": [
          {
            "text": "Wichtiger Hinweis zum Status der betroffenen Person."
          }
        ]
      }
    },
    {
      "fullUrl": "https://demis.rki.de/fhir/PractitionerRole/555-42-23-2",
      "resource": {
        "resourceType": "PractitionerRole",
        "id": "555-42-23-2",
        "meta": {
          "profile": [
            "https://demis.rki.de/fhir/StructureDefinition/NotifierRole"
          ]
        },
        "organization": {
          "reference": "Organization/555-42-23-1"
        }
      }
    },
    {
      "fullUrl": "https://demis.rki.de/fhir/Organization/555-42-23-1",
      "resource": {
        "resourceType": "Organization",
        "id": "555-42-23-1",
        "meta": {
          "profile": [
            "https://demis.rki.de/fhir/StructureDefinition/NotifierFacility"
          ]
        },
        "identifier": [
          {
            "system": "https://fhir.kbv.de/NamingSystem/KBV_NS_Base_BSNR",
            "value": "123456789"
          }
        ],
        "type": [
          {
            "coding": [
              {
                "system": "https://demis.rki.de/fhir/CodeSystem/organizationType",
                "code": "hospital",
                "display": "Krankenhaus"
              }
            ]
          }
        ],
        "name": "Kreiskrankenhaus Riedlingen",
        "telecom": [
          {
            "system": "email",
            "value": "t.person@gmail.com"
          },
          {
            "system": "email",
            "value": "test.person@kh-rie.de"
          },
          {
            "system": "phone",
            "value": "01234567",
            "use": "work"
          }
        ],
        "address": [
          {
            "line": [
              "Im Himmelreich 1"
            ],
            "_line": [
              {
                "extension": [
                  {
                    "url": "http://hl7.org/fhir/StructureDefinition/iso21090-ADXP-streetName",
                    "valueString": "Im Himmelreich"
                  },
                  {
                    "url": "http://hl7.org/fhir/StructureDefinition/iso21090-ADXP-houseNumber",
                    "valueString": "1"
                  }
                ]
              }
            ],
            "city": "Frühling",
            "postalCode": "21481",
            "country": "DE"
          }
        ],
        "contact": [
          {
            "name": {
              "text": "Test Person",
              "family": "Person",
              "given": [
                "Test"
              ]
            }
          }
        ]
      }
    },
    {
      "fullUrl": "https://demis.rki.de/fhir/QuestionnaireResponse/555-42-23-7",
      "resource": {
        "resourceType": "QuestionnaireResponse",
        "id": "555-42-23-7",
        "meta": {
          "profile": [
            "https://demis.rki.de/fhir/StructureDefinition/DiseaseInformationTOXD"
          ]
        },
        "questionnaire": "https://demis.rki.de/fhir/Questionnaire/DiseaseQuestionsTOXD",
        "status": "completed",
        "subject": {
          "reference": "Patient/555-42-23-3"
        },
        "item": [
          {
            "linkId": "motherEvidence",
            "answer": [
              {
                "valueCoding": {
                  "system": "http://snomed.info/sct",
                  "code": "1631000175102",
                  "display": "Patient/Patientin nicht gefragt"
                }
              }
            ]
          },
          {
            "linkId": "newbornEvidence",
            "answer": [
              {
                "valueCoding": {
                  "system": "http://snomed.info/sct",
                  "code": "46627006",
                  "display": "Chorioretinale Entzündung"
                }
              }
            ]
          },
          {
            "linkId": "pregnancyWeek",
            "answer": [
              {
                "valueQuantity": {
                  "value": 33,
                  "unit": "days",
                  "system": "http://unitsofmeasure.org"
                }
              }
            ]
          },
          {
            "linkId": "newbornWeight",
            "answer": [
              {
                "valueQuantity": {
                  "value": 2222,
                  "unit": "gram",
                  "system": "http://unitsofmeasure.org"
                }
              }
            ]
          },
          {
            "linkId": "newbornStatus",
            "answer": [
              {
                "valueCoding": {
                  "system": "http://snomed.info/sct",
                  "code": "281050002",
                  "display": "Lebendgeburt"
                }
              }
            ]
          },
          {
            "linkId": "infectionRiscDuringPregnancy",
            "answer": [
              {
                "valueCoding": {
                  "system": "http://snomed.info/sct",
                  "code": "102432000",
                  "display": "Kontakt mit kontaminierter Erde"
                }
              }
            ]
          },
          {
            "linkId": "countryOriginMother",
            "answer": [
              {
                "valueCoding": {
                  "system": "http://snomed.info/sct",
                  "code": "34051000087100:{370130000=41277001}",
                  "display": "Staatenlos"
                }
              }
            ]
          }
        ]
      }
    }
  ]
}